Folder: Kucoin-5-Min-Continued

Note: README.md
# Kucoin-5-Min-Continued

File: XRD.csv
"time","open","close","high","low","volume","turnover"
"2023-03-31 21:55","0.0405","0.04057","0.04058","0.04049","11419.5","462.942"
"2023-04-01 09:35","0.04169","0.04176","0.04178","0.04167","14021.7","584.864"
"2023-04-01 21:15","0.04255","0.04256","0.04257","0.04249","7799.06","331.696"
"2023-04-02 08:55","0.04307","0.04309","0.04331","0.04304","119971.245","5184.22"
"2023-04-02 20:35","0.04177","0.04172","0.0418","0.04172","13778.6","575.514"
"2023-04-03 08:15","0.04262","0.04266","0.04269","0.04262","23412","998.882"
"2023-04-03 19:55","0.04258","0.04269","0.0427","0.04257","30188.9","1287.85"
"2023-04-04 07:35","0.04262","0.04256","0.04262","0.04255","10277.3","437.713"
"2023-04-04 19:15","0.04486","0.04504","0.04528","0.04486","120797","5450.41"
"2023-04-05 06:55","0.04731","0.04736","0.04739","0.04727","27222.5","1288.7"
"2023-04-05 18:35","0.0443","0.04431","0.04431","0.04421","36546.8","1618.07"
"2023-05-01 01:15","0.10139","0.1014","0.10164","0.10135","22191.4","2251.04"
"2023-05-01 12:55","0.09617","0.09607","0.09638","0.0957","93359.6","8965.74"
"2023-05-02 00:35","0.1005","0.10051","0.10075","0.10021","45038.2","4524.18"
"2023-05-02 12:15","0.09435","0.09409","0.09439","0.094","56302.7","5299.5"
"2023-05-02 23:55","0.0923","0.09207","0.0923","0.09197","11142.6","1026.45"
"2023-05-03 11:35","0.08983","0.08963","0.0899","0.08955","4099.69","368.069"
"2023-05-03 23:15","0.09034","0.09045","0.0905","0.09034","10405.2","940.78"
"2023-05-04 10:55","0.08625","0.08645","0.08651","0.08623","32519.3","2809.44"
"2023-05-04 22:35","0.08465","0.08439","0.0847","0.08435","26302.9","2222.94"
"2023-05-05 10:15","0.08515","0.08516","0.08523","0.08501","12594.5","1072.34"
"2023-05-05 21:55","0.07813","0.07816","0.07836","0.07812","4964.19","388.427"
"2023-05-31 04:35","0.06962","0.06968","0.06975","0.06962","5261.26","366.487"
"2023-05-31 16:15","0.06679","0.06679","0.06687","0.06671","12231.1","816.735"
"2023-06-01 03:55","0.06516","0.0651","0.06523","0.06506","16336.6","1064.1"
"2023-06-01 15:35","0.06669","0.06671","0.06676","0.06668","5510.724","367.672"
"2023-06-02 03:15","0.06763","0.0676","0.06764","0.06757","4859.08","328.477"
"2023-06-02 14:55","0.06856","0.06847","0.06857","0.06847","6576.84","450.647"
"2023-06-03 02:35","0.07053","0.07068","0.07068","0.07048","18294.3","1290.85"
"2023-06-03 14:15","0.06748","0.06749","0.06753","0.06745","4688.89","316.417"
"2023-06-04 01:55","0.06637","0.06637","0.06637","0.06635","4451.81","295.421"
"2023-06-04 13:35","0.06741","0.06738","0.06745","0.06738","7811.36","526.45"
"2023-06-05 01:15","0.06707","0.06715","0.06718","0.06706","13354.9","896.761"
"2023-06-30 07:55","0.06451","0.06472","0.06472","0.06448","43771.6","2828.83"
"2023-06-30 19:35","0.06015","0.06017","0.06019","0.0601","44200.3","2658.34"
"2023-07-01 07:15","0.06346","0.06348","0.06348","0.06346","4923.13","312.471"
"2023-07-01 18:55","0.06207","0.06196","0.06216","0.06196","44588.7","2766.39"
"2023-07-02 06:35","0.06313","0.06313","0.06325","0.06306","25482.4","1609.86"
"2023-07-02 18:15","0.06272","0.06269","0.06273","0.06269","7435.44","466.241"
"2023-07-03 05:55","0.06304","0.06302","0.06309","0.06293","5163.11","325.362"
"2023-07-03 17:35","0.06419","0.06431","0.06434","0.06413","15666.6","1005.94"
"2023-07-04 05:15","0.06379","0.06397","0.06403","0.06376","21855.9","1396.21"
"2023-07-04 16:55","0.06102","0.06104","0.06109","0.06097","12616.7","769.876"
"2023-07-29 23:35","0.05616","0.05621","0.05621","0.05616","1439.17","80.8672"
"2023-07-30 11:15","0.05598","0.05598","0.05598","0.05598","0","0"
"2023-07-30 22:55","0.05598","0.05598","0.05604","0.05598","3320.79","185.901"
"2023-07-31 10:35","0.05592","0.05597","0.05605","0.05592","14372.4","804.446"
"2023-07-31 22:15","0.05514","0.05517","0.05517","0.05514","2821.75","155.641"
"2023-08-01 09:55","0.05495","0.05495","0.05495","0.05495","110.0897","6.04943"
"2023-08-01 21:35","0.0551","0.05509","0.0551","0.05509","2358.254","129.924"
"2023-08-02 09:15","0.05489","0.05536","0.0556","0.05485","185621","10245.8"
"2023-08-02 20:55","0.05269","0.05255","0.05275","0.05252","67175.8","3535.98"
"2023-08-03 08:35","0.05296","0.05282","0.05298","0.05282","79170.6","4189.03"
"2023-08-03 20:15","0.05388","0.05387","0.05388","0.05387","810.2631","43.6519"
"2023-08-29 02:55","0.05276","0.05276","0.05276","0.05276","408","21.52608"
"2023-08-29 14:35","0.05405","0.05411","0.05445","0.05405","39145.2","2123.64"
"2023-08-30 02:15","0.05359","0.05361","0.05362","0.05359","2615.77","140.223"
"2023-08-30 13:55","0.05376","0.05372","0.05376","0.05372","4270.91","229.544"
"2023-08-31 01:35","0.05291","0.05288","0.05291","0.05288","4840.86","256.041"
"2023-08-31 13:15","0.05291","0.05289","0.05291","0.05288","4378.16","231.579"
"2023-09-01 00:55","0.05249","0.05255","0.05256","0.05248","6909.899","362.958"
"2023-09-01 12:35","0.05234","0.05234","0.05234","0.05234","0","0"
"2023-09-02 00:15","0.05215","0.05214","0.05218","0.05214","5485.87","286.123"
"2023-09-02 11:55","0.05153","0.05154","0.05166","0.05151","42128.3","2173.43"
"2023-09-02 23:35","0.05196","0.05197","0.05199","0.05195","4394.15","228.365"
"2023-09-28 06:15","0.0634","0.06337","0.06346","0.06331","8995.13","570.441"
"2023-09-28 17:55","0.06268","0.06271","0.06289","0.06268","10392.7","652.297"
"2023-09-29 05:35","0.06155","0.0617","0.06175","0.06155","7153.06","441.189"
"2023-09-29 17:15","0.05744","0.05756","0.05757","0.05744","33498.6","1928.02"
"2023-09-30 04:55","0.05857","0.05855","0.05858","0.05855","2643.23","154.791"
"2023-09-30 16:35","0.05729","0.05722","0.0573","0.05713","11735.6","670.834"
"2023-10-01 04:15","0.05686","0.05688","0.05688","0.05683","1767.93","100.514"
"2023-10-01 15:55","0.05807","0.05804","0.05808","0.05802","3120.15","181.098"
"2023-10-02 03:35","0.05934","0.05913","0.05934","0.0591","46851.9","2772.71"
"2023-10-02 15:15","0.05799","0.05773","0.05801","0.05762","16899.5","976.426"
"2023-10-27 21:55","0.04116","0.04103","0.04116","0.04103","11718.4","480.891"
"2023-10-28 09:35","0.04225","0.04225","0.04225","0.04225","0","0"
"2023-10-28 21:15","0.04095","0.04095","0.04095","0.04095","0","0"
"2023-10-29 08:55","0.04104","0.04097","0.04104","0.04097","11536.6","472.936"
"2023-10-29 20:35","0.042","0.04201","0.04201","0.04197","11985.2","503.191"
"2023-10-30 08:15","0.04122","0.04124","0.04124","0.04122","3460","142.6354"
"2023-10-30 19:55","0.04201","0.042","0.04202","0.042","40572.8","1704.35"
"2023-10-31 07:35","0.04231","0.04231","0.04231","0.04231","0","0"
"2023-10-31 19:15","0.04246","0.04243","0.04246","0.04243","3357.086","142.522"
"2023-11-01 06:55","0.04148","0.04148","0.04148","0.04148","0","0"
"2023-11-01 18:35","0.04029","0.04041","0.04041","0.04029","17140.6","690.746"
"2023-11-27 01:15","0.05404","0.05409","0.05415","0.05404","49137.6","2659.8"
"2023-11-27 12:55","0.05058","0.05048","0.0506","0.05016","253400","12790.3"
"2023-11-28 00:35","0.0513","0.05139","0.05147","0.05122","36278","1860.28"
"2023-11-28 12:15","0.05173","0.052","0.052","0.05173","157824","8198.57"
"2023-11-28 23:55","0.05078","0.05086","0.05087","0.05076","14286.8","725.378"
"2023-11-29 11:35","0.05082","0.05082","0.05082","0.05082","0","0"
"2023-11-29 23:15","0.05611","0.05625","0.05625","0.05606","23182.9","1300.74"
"2023-11-30 10:55","0.05531","0.05539","0.05539","0.05531","4202.47","232.67"
"2023-11-30 22:35","0.05239","0.0522","0.0524","0.0522","23294.9","1216.37"
"2023-12-01 10:15","0.05311","0.05278","0.0532","0.05278","63478.9","3364.49"
"2023-12-01 21:55","0.05257","0.0531","0.0531","0.05257","188816","9995.37"
"2023-12-27 04:35","0.04436","0.04427","0.04436","0.04409","185546","8205.13"
"2023-12-27 16:15","0.04586","0.04559","0.04594","0.04544","206412","9425.87"
"2023-12-28 03:55","0.0476","0.04745","0.04789","0.04735","375862","17894"
"2023-12-28 15:35","0.0454","0.0459","0.0459","0.04539","187141","8541.95"
"2023-12-29 03:15","0.04556","0.04556","0.04556","0.04556","8556.65","389.841"
"2023-12-29 14:55","0.04491","0.04493","0.04493","0.04491","11414.5","512.798"
"2023-12-30 02:35","0.04465","0.04465","0.04465","0.04465","1117.818","49.9106"
"2023-12-30 14:15","0.0438","0.04396","0.04396","0.0438","54422.3","2386.91"
"2023-12-31 01:55","0.04274","0.04249","0.04276","0.04249","46619.4","1988.43"
"2023-12-31 13:35","0.04176","0.04186","0.04193","0.04176","121809","5094.65"
"2024-01-01 01:15","0.04169","0.04168","0.04169","0.04165","3791.5","157.976"
"2024-01-26 07:55","0.04033","0.04035","0.04035","0.04033","7657.04","308.859"
"2024-01-26 19:35","0.04269","0.04267","0.04269","0.04267","25765.8","1099.52"
"2024-01-27 07:15","0.04346","0.0434","0.04346","0.0434","38556.3","1674.26"
"2024-01-27 18:55","0.04274","0.04273","0.04274","0.04273","360.8937","15.4223"
"2024-01-28 06:35","0.04388","0.04387","0.04388","0.04384","25180.1","1104.33"
"2024-01-28 18:15","0.04134","0.04122","0.04134","0.04122","5347.92","220.789"
"2024-01-29 05:55","0.04237","0.04237","0.04237","0.04237","4448.51","188.483"
"2024-01-29 17:35","0.04285","0.04285","0.0429","0.04284","31090.9","1333.08"
"2024-01-30 05:15","0.04122","0.04273","0.0435","0.04122","1.4232e+06","60665.1"
"2024-01-30 16:55","0.04143","0.04138","0.04143","0.04136","2839.48","117.599"
"2024-02-24 23:35","0.0456","0.04571","0.04571","0.0456","58512.5","2671.29"
"2024-02-25 11:15","0.04655","0.04645","0.04661","0.04645","122471","5694.68"
"2024-02-25 22:55","0.04717","0.04707","0.04717","0.04707","32595.1","1536.02"
"2024-02-26 10:35","0.04557","0.04558","0.04571","0.04543","50138","2284.66"
"2024-02-26 22:15","0.04728","0.04726","0.04732","0.04724","30016.4","1418.58"
"2024-02-27 09:55","0.04896","0.04903","0.04905","0.04893","20241.7","991.742"
"2024-02-27 21:35","0.04689","0.04686","0.04689","0.04683","13994.4","655.658"
"2024-02-28 09:15","0.04675","0.04677","0.0468","0.04674","4704.74","220.032"
"2024-02-28 20:55","0.04501","0.04426","0.04501","0.04409","515606","22964.2"
"2024-02-29 08:35","0.04486","0.04505","0.04517","0.04486","354423","15960"
"2024-02-29 20:15","0.04514","0.04515","0.04518","0.04514","10917.9","493.091"
"2024-03-01 02:50","0.04455","0.0446","0.0446","0.04455","7679.18","342.245"